onset	duration	trial_type	category	response	response_time	object_classes	dissimcontr	simcontr	scaleddissim	scaledsim
1.03810763658	3	010001	1	4	2.58348421378	OO	0.152790416911337	0.115376273157521	0.732686118675901	-0.890938316883612
6.6211529678	3	000110	3	3	2.35016433653	FS	0.0528757288786183	2.83844589	-0.636615340481226	1.65866561382542
12.9207653487	3	000100	3	4	2.41682699896	F	0.0479809880466714	0.471741796891181	-0.703696326223643	-0.557274082058035
20.0882916684	3	010100	3	1	1.56682567198	FO	0.209286382011707	0.921013886354343	1.50694673011968	-0.136621639620167
26.2543183561	3	011000	2	2	2.9334867979	OS	0.152961791691503	0.0880501376782306	0.735034759713222	-0.916523715801864
33.6543069021	3	001100	3	2	1.06687777357	FS	0.211908371718908	0.307004628784781	1.54288032909954	-0.711517120407153
38.7376057572	3	001010	2	2	1.51683859261	SS	0.0493976794361213	0.197815096803141	-0.684280986748091	-0.813751032537345
44.920970682	3	011000	1	2	0.916853119601	OS	0.152961791691503	0.0880501376782306	0.735034759713222	-0.916523715801864
51.4877661826	3	100001	1	4	0.933512778858	FO	0.211484550690032	0.307004628784781	1.53707198635546	-0.711517120407153
57.0042589212	3	010001	4	4	1.8668238561	OO	0.152790416911337	0.115376273157521	0.732686118675901	-0.890938316883612
63.6042446736	3	010100	3	1	1.18350181378	FO	0.209286382011707	0.921013886354343	1.50694673011968	-0.136621639620167
68.7875900429	3	001010	3	2	1.16685332912	SS	0.0493976794361213	0.197815096803141	-0.684280986748091	-0.813751032537345
74.3206111391	3	000010	3	3	2.58349231537	S	0	1.85083043501848	-1.36126167760214	0.73396349439535
82.1052698038	3	000011	4	4	0.783494829649	OS	0.150070627130714	0.102534286835451	0.695412198409158	-0.902962239666323
89.1374356238	3	000110	3	3	1.30017502224	FS	0.0528757288786183	2.83844589	-0.636615340481226	1.65866561382542
94.4207671645	3	110000	1	1	0.900192063516	FO	0.0527750022286718	2.83844589	-0.637995769639975	1.65866561382542
100.637632157	3	010001	4	1	1.35018333336	OO	0.152790416911337	0.115376273157521	0.732686118675901	-0.890938316883612
108.520696904	3	000110	3	3	1.03351822648	FS	0.0528757288786183	2.83844589	-0.636615340481226	1.65866561382542
114.704056242	3	000110	3	3	0.900182285737	FS	0.0528757288786183	2.83844589	-0.636615340481226	1.65866561382542
121.020661285	3	000011	3	3	2.11685004658	OS	0.150070627130714	0.102534286835451	0.695412198409158	-0.902962239666323
126.220668828	3	000101	4	4	0.900168876213	FO	0.158627186635855	0.94614863	0.812677333760609	-0.113088035925289
131.23736704	3	001010	3	3	1.28957786534	SS	0.0493976794361213	0.197815096803141	-0.684280986748091	-0.813751032537345
137.376334143	3	011000	1	2	1.00010001271	OS	0.152961791691503	0.0880501376782306	0.735034759713222	-0.916523715801864
143.242376894	3	100000	1	1	1.40005671112	F	0.0480957838760742	0.530825464317935	-0.702123083091913	-0.501954177719111
149.209001703	3	110000	1	1	0.916769310066	FO	0.0527750022286718	2.83844589	-0.637995769639975	1.65866561382542
155.12494074	3	101000	2	2	1.3667069418	FS	0.158325006686016	0.94614863	0.808536046284361	-0.113088035925289
160.674554727	3	001010	2	3	1.23341402329	SS	0.0493976794361213	0.197815096803141	-0.684280986748091	-0.813751032537345
166.64091777	3	100001	1	4	0.966779576735	FO	0.211484550690032	0.307004628784781	1.53707198635546	-0.711517120407153
171.823258822	3	000001	4	4	1.13342170583	O	0	0.616943478339493	-1.36126167760214	-0.421322075735314
176.989973307	3	011000	2	1	1.4334067598	OS	0.152961791691503	0.0880501376782306	0.735034759713222	-0.916523715801864
182.222760435	3	110000	1	1	1.41672307514	FO	0.0527750022286718	2.83844589	-0.637995769639975	1.65866561382542
187.922019977	3	010000	1	1	0.850090444455	O	0	1.41247303420819	-1.36126167760214	0.323530450286377
192.9721554	3	110000	1	1	0.733431204246	FO	0.0527750022286718	2.83844589	-0.637995769639975	1.65866561382542
198.221164422	3	100000	1	1	1.21674430689	F	0.0480957838760742	0.530825464317935	-0.702123083091913	-0.501954177719111
205.653940934	3	010000	1	1	1.05008373969	O	0	1.41247303420819	-1.36126167760214	0.323530450286377
212.003787353	3	010001	1	4	1.41683537992	OO	0.152790416911337	0.115376273157521	0.732686118675901	-0.890938316883612
217.003804953	3	000011	4	4	1.51681177356	OS	0.150070627130714	0.102534286835451	0.695412198409158	-0.902962239666323
222.637392741	3	110000	1	1	1.00014443176	FO	0.0527750022286718	2.83844589	-0.637995769639975	1.65866561382542
227.637125109	3	000110	3	3	1.10002835556	FS	0.0528757288786183	2.83844589	-0.636615340481226	1.65866561382542
233.253708223	3	100010	1	3	1.10020212066	FS	0.209427655687999	0.921013886354343	1.50888284436771	-0.136621639620167
239.820078809	3	000100	3	4	1.6168258815	F	0.0479809880466714	0.471741796891181	-0.703696326223643	-0.557274082058035
245.486990944	3	000101	4	4	1.53349573759	FO	0.158627186635855	0.94614863	0.812677333760609	-0.113088035925289
250.903854261	3	100010	1	3	1.35016657145	FS	0.209427655687999	0.921013886354343	1.50888284436771	-0.136621639620167
255.920321158	3	000110	3	3	0.96681868785	FS	0.0528757288786183	2.83844589	-0.636615340481226	1.65866561382542
261.186963148	3	000011	3	3	1.31685284024	OS	0.150070627130714	0.102534286835451	0.695412198409158	-0.902962239666323
266.853391981	3	000010	3	3	1.01683063071	S	0	1.85083043501848	-1.36126167760214	0.73396349439535
273.703337994	3	000001	4	4	0.983502651872	O	0	0.616943478339493	-1.36126167760214	-0.421322075735314
280.620172117	3	101000	2	2	1.58349538838	FS	0.158325006686016	0.94614863	0.808536046284361	-0.113088035925289
287.369857622	3	001000	2	2	0.816829233883	S	0	0.470824344736063	-1.36126167760214	-0.558133090438305
293.703485219	3	110000	1	1	0.933530937593	FO	0.0527750022286718	2.83844589	-0.637995769639975	1.65866561382542
300.487042068	3	001100	3	2	1.56682902436	FS	0.211908371718908	0.307004628784781	1.54288032909954	-0.711517120407153
306.919785336	3	001000	2	2	0.9171470117	S	0	0.470824344736063	-1.36126167760214	-0.558133090438305
